File: Nariman/Projects/miniproject_1/concrete_test.csv
Cement (component 1)(kg in a m^3 mixture),Blast Furnace Slag (component 2)(kg in a m^3 mixture),Fly Ash (component 3)(kg in a m^3 mixture),Water  (component 4)(kg in a m^3 mixture),Superplasticizer (component 5)(kg in a m^3 mixture),Coarse Aggregate  (component 6)(kg in a m^3 mixture),Fine Aggregate (component 7)(kg in a m^3 mixture),Age (day),"Concrete compressive strength(MPa, megapascals) "
Cement,Slag,FlyAsh,Water,Superplasticizer,CoarseAgg,FineAgg,Age,compressivestrn
236,0,0,193,0,968,885,7,9.99051
288,121,0,177,7,908,829,28,42.1339
290.35,0,96.18,168.08,9.41,961.18,865,14,34.6737
302,0,0,203,0,974,817,28,21.753
262,111,86,195,5,895,733,28,33.7154
322,149,0,186,8,951,709,28,52.4209
190.68,0,125.4,162.14,7.77,1090,804.01,100,40.5688
388.6,97.1,0,157.9,12.1,852.1,925.7,3,28.0961
297.8,137.2,106.9,201.3,6,878.4,655.3,28,53.5247
321.4,0,127.9,182.5,11.5,870.1,779.7,28,37.2655
139.6,209.4,0,192,0,1047,806.9,360,44.698
362.6,189,0,164.9,11.6,944.7,755.8,56,77.2972
298.1,0,107,186.4,6.1,879,815.2,28,42.6441
136,196,98,199,6,847,783,28,26.9654
164,163,128,197,8,961,641,28,27.2343
275,0,0,183,0,1088,808,28,24.4971
275,180,120,162,10.35,830,765,28,76.2354
491,26,123,210,3.93,882,699,7,33.4888
165,128.5,132.1,175.06,8.08,1005.8,746.6,28,46.3879
277.05,0,97.39,160.6,11.83,973.9,875.61,14,41.8857
231.75,0,121.62,173.96,6.72,1056.4,778.45,28,33.7292
203.5,305.3,0,203.5,0,963.4,630,7,19.5391
102,153,0,192,0,887,942,3,4.56502
212,141.3,0,203.5,0,973.4,750,7,15.0306
135.7,203.5,0,185.7,0,1076.2,759.3,7,7.50701
200,200,0,190,0,1145,660,28,49.2493
475,0,0,228,0,932,594,7,38.6038
313.3,262.2,0,175.5,8.6,1046.9,611.8,28,59.7983
182.04,45.21,121.97,170.21,8.19,1059.4,780.65,28,31.2677
379.5,151.2,0,153.9,15.9,1134.3,605,7,47.0981
231.75,0,121.62,173.96,6.72,1056.4,778.45,3,15.4374
203.5,305.3,0,203.5,0,963.4,630,90,51.8638
172.38,13.61,172.37,156.76,4.14,1006.3,856.4,3,21.291
446,24,79,162,10.3,967,712,56,54.7651
295.8,0,0,185.7,0,1091.4,769.3,7,14.8437
255,99,77,189,6,919,749,28,33.7981
265,111,86,195,6,833,790,28,41.5409
139.6,209.4,0,192,0,1047,806.9,28,28.2375
153,102,0,192,0,888,943.1,90,26.3228
339,0,0,197,0,968,781,180,36.4457
181.9,272.8,0,185.7,0,1012.4,714.3,7,12.3726
239.6,359.4,0,185.7,0,941.6,664.3,7,25.4224
307,0,0,193,0,968,812,28,27.5308
350,0,0,186,0,1050,770,7,20.2775
296,0,0,192,0,1085,765,28,21.6495
139.7,163.9,127.7,236.7,5.8,868.6,655.6,28,35.2253
213.5,0,174.24,154.61,11.66,1052.3,775.48,3,17.3679
236,0,0,194,0,968,885,3,6.46728
190.68,0,125.4,162.14,7.77,1090,804.01,3,15.0444
362.6,189,0,164.9,11.6,944.7,755.8,28,71.2987
148.1,0,136.6,158.1,16.1,1001.8,830.1,28,17.9595
314,0,113,170,10,925,783,28,38.459
375,0,0,186,0,1038,758,7,26.0622
198.6,132.4,0,192,0,978.4,825.5,7,14.6383
439,177,0,186,11.1,884.9,707.9,28,65.9966
218.85,0,124.13,158.49,11.33,1078.7,794.91,100,46.2294
236,157,0,192,0,972.6,749.1,3,13.5654
276.4,116,90.3,179.6,8.9,870.1,768.3,28,44.2844
374,0,0,190,7,1013,730,28,39.0519
252.31,0,98.75,146.25,14.17,987.76,889.01,100,60.9497
427.5,47.5,0,228,0,932,594,7,35.0764
192,288,0,192,0,929.8,716.1,3,12.7884
213.5,0,174.24,154.61,11.66,1052.3,775.48,100,59.3018
108.3,162.4,0,203.5,0,938.2,849,90,29.2317
331,0,0,192,0,978,825,3,13.5206
148,175,0,171,2,1000,828,28,26.9171
382,0,0,186,0,1111,784,7,11.466
277.19,97.82,24.46,160.7,11.19,1061.7,782.46,3,30.4473
500,0,0,140,4,966,853,28,67.5686
266.2,112.3,87.5,177.9,10.4,909.7,744.5,28,39.4215
261.9,110.5,86.1,195.4,5,895.2,732.6,28,33.7188
149,139,109,193,6,892,780,28,23.6904
168.88,42.22,124.25,158.33,10.83,1080.8,796.15,3,7.39808
401.8,94.7,0,147.4,11.4,946.8,852.1,28,68.4994
186.2,124.1,0,185.7,0,1083.4,764.3,28,17.5968
133,200,0,192,0,927.4,839.2,90,36.5884
173.54,50.05,173.53,164.77,6.47,1006.2,793.5,3,23.0768
194.68,0,100.52,170.17,7.48,998,901.8,14,24.2833
277,117,91,191,7,946,666,28,43.5749
425,106.3,0,151.4,18.6,936,803.7,56,64.9004
194.68,0,100.52,165.62,7.48,1006.4,905.9,3,12.4519
332.5,142.5,0,228,0,932,594,270,40.2695
284,15,141,179,5.46,842,801,28,43.7335
491,26,123,201,3.93,822,699,56,61.8558
139.6,209.4,0,192,0,1047,806.9,7,14.5893
194.68,0,100.52,165.62,7.48,1006.4,905.9,100,37.342
157,214,152,200,9,819,704,28,33.0535
139.6,209.4,0,192,0,1047,806.9,3,8.06342
284,120,0,168,7,970,794,28,40.9342
148,0,137,158,16,1002,830,28,17.954
212.57,0,100.39,159.35,10.37,1003.8,903.79,3,13.3345
213.72,98.05,24.51,181.71,6.86,1065.8,785.38,3,17.9953
251.37,0,118.27,192.94,5.75,1043.6,754.3,100,40.1482
135.7,203.5,0,185.7,0,1076.2,759.3,28,18.1987
381.4,0,0,185.7,0,1104.6,784.3,28,22.4893
173.81,93.37,159.9,172.34,9.73,1007.2,746.6,56,48.9873
362.6,189,0,164.9,11.6,944.7,755.8,56,77.2972
154,144,112,220,10,923,658,28,16.4992
313.3,0,113,178.5,8,1001.9,688.7,28,36.8049
469,117.2,0,137.8,32.2,852.1,840.5,56,69.2992
480,0,0,192,0,936.2,712.2,7,34.5696
310,0,0,192,0,970,850,90,34.6806
284,119.7,0,168.3,7.2,970.4,794.2,28,40.9349
469,117.2,0,137.8,32.2,852.1,840.5,7,54.8961
516,0,0,162,8.26,801,802,28,41.36856
325,0,0,184,0,1063,783,28,30.5714
298.1,0,107.5,163.6,12.8,953.2,784,28,35.8659
172.38,13.61,172.37,156.76,4.14,1006.3,856.4,100,37.6799
387,20,94,157,14.32,938,845,3,22.7527
229.68,0,118.16,195.23,6.13,1028.1,757.63,14,22.3183
375,93.8,0,126.6,23.4,852.1,992.6,3,28.9994
313.3,262.2,0,175.5,8.6,1046.9,611.8,91,66.5965
200,133,0,192,0,965.4,806.2,90,43.2508
400,0,0,187,0,1025,745,7,30.1439
385,0,0,186,0,966,763,7,23.2216
376,0,0,214.6,0,1003.5,762.36,28,31.971
286.3,200.9,0,144.7,11.2,1004.6,803.7,56,72.9948
250,0,0,182,0,1100,820,7,12.7346
275.07,0,121.35,159.48,9.9,1053.6,777.5,100,58.60546
425,106.3,0,153.5,16.5,852.1,887.1,28,60.2947
425,106.3,0,153.5,16.5,852.1,887.1,7,49.201
166.09,0,163.27,176.46,4.49,1058.6,780.09,14,25.483
500,0,0,200,0,1125,613,14,36.9352
154.8,0,142.8,193.3,9.1,1047.4,696.7,28,12.4595
349,0,0,192,0,1047,806,90,39.4863
425,106.3,0,153.5,16.5,852.1,887.1,7,49.201
250,0,95.69,187.42,5.53,956.86,861.17,14,24.9177
166,259.7,0,183.2,12.7,858.8,826.8,28,37.917
277.05,0,97.39,160.6,11.83,973.9,875.61,3,23.1388
525,0,0,189,0,1125,613,90,58.7847
289,0,0,192,0,913.2,895.3,90,32.0682
331,0,0,192,0,1025,821,28,31.7435
231.75,0,121.62,173.96,6.72,1056.4,778.45,14,26.7724
531.3,0,0,141.8,28.2,852.1,893.7,28,56.3991
203.5,135.7,0,185.7,0,1076.2,759.3,7,11.9576
286.3,200.9,0,144.7,11.2,1004.6,803.7,7,37.997
389.9,189,0,145.9,22,944.7,755.8,7,59.095
153,102,0,192,0,888,943.1,28,17.9643
322.5,148.6,0,185.8,8.5,951,709.5,28,52.4264
298,0,107,164,13,953,784,28,35.8596
332.5,142.5,0,228,0,932,594,365,41.0528
323.7,282.8,0,183.8,10.3,942.7,659.9,3,28.2961
133.1,210.2,0,195.7,3.1,949.4,795.3,28,28.938
525,0,0,189,0,1125,613,3,33.7981
214.9,53.8,121.89,155.63,9.61,1014.3,780.58,14,38.6038
277.19,97.82,24.46,160.7,11.19,1061.7,782.46,28,63.1422
313,0,113,178,8,1002,689,28,36.8042
379.5,151.2,0,153.9,15.9,1134.3,605,56,54.8961
313,145,0,127,8,1000,822,28,44.5195
251.37,0,118.27,188.45,5.75,1028.4,757.73,28,29.6544
321,164,0,190,5,870,774,28,57.2127
385,0,0,186,0,966,763,14,27.9238
218.23,54.64,123.78,140.75,11.91,1075.7,792.67,3,27.4205
277,0,0,191,0,968,856,90,31.2539
374.3,0,0,190.2,6.7,1013.2,730.4,28,39.0561
229.97,0,118.31,195.47,4.63,1029.4,758.59,100,35.3425
214.9,53.8,121.89,155.63,9.61,1014.3,780.58,3,18.016
393,0,0,192,0,940.6,785.6,3,19.1991
251.37,0,118.27,188.45,5.75,1028.4,757.73,3,17.2231
336,0,0,182,3,986,817,28,44.8642
446,24,79,162,11.61,967,712,3,35.3632
212,0,124.78,159,7.84,1085.4,799.54,28,38.5003
165,128.5,132.1,175.06,8.08,1005.8,746.6,3,19.4156
350,0,0,203,0,974,775,7,18.1263
220.8,147.2,0,185.7,0,1055,744.3,7,13.089
480,0,0,192,0,936,721,3,24.3937
446,24,79,162,11.61,967,712,28,57.0266
475,118.8,0,181.1,8.9,852.1,781.5,7,55.5993
228,342.1,0,185.7,0,955.8,674.3,7,21.9171
305.3,203.5,0,203.5,0,965.4,631,28,43.377
198.6,132.4,0,192,0,978.4,825.5,28,28.0217
275.07,0,121.35,159.48,9.9,1053.6,777.5,3,23.8007
304,76,0,228,0,932,670,28,47.8138
135,0,166,180,10,961,805,28,13.2931
288.4,121,0,177.4,7,907.9,829.5,28,42.1401
491,26,123,210,3.93,882,699,56,59.5904
132,206.5,160.9,178.9,5.5,866.9,735.6,28,33.3065
298,137,107,201,6,878,655,28,53.524
393,0,0,192,0,940.6,785.6,90,48.8466
157,236,0,192,0,935.4,781.2,90,43.377
275.07,0,121.35,159.48,9.9,1053.6,777.5,14,38.7692
254,0,0,198,0,968,863,3,9.307926
246.83,0,125.08,143.3,11.99,1086.8,800.89,56,60.3223
182.04,45.21,121.97,170.21,8.19,1059.4,780.65,14,21.5048
339,0,0,197,0,968,781,365,38.8933
159,149,116,175,15,953,720,28,27.6756
186.2,124.1,0,185.7,0,1083.4,764.3,7,7.99585
339.2,0,0,185.7,0,1069.2,754.3,7,21.1793
246.83,0,125.08,143.3,11.99,1086.8,800.89,14,42.2166
281,0,0,185,0,1104,774,28,22.4355
425,106.3,0,153.5,16.5,852.1,887.1,91,65.1969
190,190,0,228,0,932,670,90,42.3269
331,0,0,192,0,978,825,180,38.9968
446,24,79,162,10.3,967,712,28,53.3861
233.81,0,94.58,197.89,4.567,947.04,852.16,3,10.3835
272.6,0,89.6,198.7,10.6,931.3,762.2,28,32.2454
183.9,122.6,0,203.5,0,959.2,800,3,4.90355
145,116,119,184,5.7,833,880,28,29.1579
166.8,250.2,0,203.5,0,975.6,692.6,90,43.5652
475,118.8,0,181.1,8.9,852.1,781.5,28,68.2995
331,0,0,192,0,978,825,90,37.2317
122.6,183.9,0,203.5,0,958.2,800.1,28,24.2909
148,0,182,181,15,839,884,28,15.5201
173.81,93.37,159.9,172.34,9.73,1007.2,746.6,3,15.8166
212.07,0,121.62,180.31,5.69,1057.6,779.32,14,20.9187
312.7,0,0,178.1,8,999.7,822.2,28,25.1038
342,38,0,228,0,932,670,365,56.142
424,22,132,178,8.48,822,750,56,65.6972
491,26,123,201,3.93,822,699,28,57.916
337.9,189,0,174.9,9.5,944.7,755.8,7,35.1012
181.38,0,167.01,169.59,7.56,1055.6,777.8,28,27.7721
397,0,0,186,0,1040,734,28,36.9352
144.8,0,133.6,180.8,11.1,979.5,811.5,28,13.2021
203.5,305.3,0,203.5,0,963.4,630,3,9.56165
212,141.3,0,203.5,0,973.4,750,90,39.7
405,0,0,175,0,1120,695,28,52.3036
310,0,0,192,0,1012,830,28,27.8273
446,24,79,162,11.64,967,712,3,25.0211
229.68,0,118.16,195.23,6.13,1028.1,757.63,100,40.8583
350,0,0,203,0,974,775,56,29.9784
333,17.5,163,167,17.9,996,652,28,47.2774
321.3,164.2,0,190.5,4.6,870,774,28,57.2182
170.3,155.5,0,185.7,0,1026.6,724.3,28,25.7264
272.8,181.9,0,185.7,0,1012.4,714.3,7,19.7652
255.5,170.3,0,185.7,0,1026.6,724.3,28,32.0517
213.76,98.06,24.52,181.74,6.65,1066,785.52,14,17.8367
297.16,0,117.54,174.8,9.52,1022.8,753.45,100,56.7439
350,0,0,203,0,974,775,14,22.5321
266,114,0,228,0,932,670,365,52.9083
397,0,0,185.7,0,1040.6,734.3,7,25.4479
298,0,107,186,6,879,815,28,42.6372
310,0,0,192,0,1012,830,90,35.7631
165,0.02,143.57,163.81,0,1005.6,900.9,56,36.5629
116,173,0,192,0,909.8,891.9,90,31.0237
425,106.3,0,153.5,16.5,852.1,887.1,3,33.3982
516,0,0,162,8.2,801,802,28,41.36856
252,0,0,185,0,1111,784,28,19.6914
388.6,97.1,0,157.9,12.1,852.1,925.7,56,55.1994
166.09,0,163.27,176.46,4.49,1058.6,780.09,3,10.7627
155,183,0,193,9,1047,697,28,18.2849
213.72,98.05,24.51,181.71,6.86,1065.8,785.38,56,50.773
153,102,0,192,0,888,943.1,3,4.78221
275,0,0,183,0,1088,808,7,14.2032
540,0,0,173,0,1125,613,180,71.6228
116,173,0,192,0,909.8,891.9,28,22.348
318.8,212.5,0,155.7,14.3,852.1,880.4,56,66.1001
152,0,112,184,8,992,816,28,12.1761
376,0,0,214.6,0,1003.5,762.36,3,16.2785
387,20,94,157,13.93,938,845,28,46.6844
164.2,0,200.1,181.2,12.6,849.3,846,28,15.0913
210.7,316.1,0,185.7,0,977,689.3,28,37.8136
251.37,0,118.27,188.45,6.35,1028.4,757.73,56,36.6388
251.37,0,118.27,192.94,5.75,1043.6,754.3,3,11.9831
202,11,141,206,1.72,942,801,56,23.2452
252.5,0,0,185.7,0,1111.6,784.3,7,11.4839
318.8,212.5,0,155.7,14.3,852.1,880.4,7,33.3982
277,0,0,191,0,968,856,360,33.7016
250,0,95.69,191.84,5.33,948.9,857.2,100,41.1617
168.88,42.22,124.25,158.33,10.83,1080.8,796.15,28,31.1161
321,0,128,182,11,870,780,28,37.2593
349,0,0,192,0,1056,809,90,40.6584
166,260,0,183,13,859,827,28,37.9143
337.9,189,0,174.9,9.5,944.7,755.8,91,67.7962
144,136,106,178,7,941,774,28,26.1449
387,20,94,157,11.61,938,845,3,34.7703
362.6,189,0,164.9,11.6,944.7,755.8,91,79.2966
198.6,132.4,0,192,0,978.4,825.5,90,38.0742
194.68,0,100.52,170.17,7.48,998,901.8,3,12.1761
251.37,0,118.27,188.45,5.75,1028.4,757.73,14,29.9302
252,0,0,185,0,1111,784,28,19.6914
167,75.4,167,164.03,7.91,1007.3,770.1,14,32.9018
251.37,0,118.27,188.45,6.35,1028.4,757.73,3,13.1207
139.6,209.4,0,192,0,1047,806.9,180,44.2078
213.76,98.06,24.52,181.74,6.65,1066,785.52,100,49.9732
183.9,122.6,0,203.5,0,959.2,800,90,32.5329
401.8,94.7,0,147.4,11.4,946.8,852.1,91,75.4976
446,24,79,162,11.64,967,712,28,44.4229
213.74,0,174.74,154.79,10.16,1053.5,776.35,14,33.7292
252.31,0,98.75,146.25,14.17,987.76,889.01,3,21.7805
366,187,0,191.3,6.6,824.3,756.9,28,65.9091
425,106.3,0,153.5,16.5,852.1,887.1,7,49.201
322,0,0,203,0,974,800,28,25.1797
385,0,0,186,0,966,763,1,6.26734
446,24,79,162,11.64,967,712,56,56.144
491,26,123,201,3.93,822,699,3,29.549
184,86,190,213,6,923,623,28,22.932
181.38,0,167.01,169.59,7.56,1055.6,777.8,14,21.6013
212.52,0,100.37,159.32,8.71,1007.8,903.59,3,13.5413
238.2,158.8,0,185.7,0,1040.6,734.3,28,26.9137
147,115,89,202,9,860,829,28,19.9879
158.8,238.2,0,185.7,0,1040.6,734.3,7,9.6175
153,145,113,178,8,867,824,28,26.2277
178.03,129.8,118.6,179.94,3.57,1007.3,746.8,100,49.9939
349,0,0,192,0,1047,806,28,32.7225
297.16,0,117.54,174.8,9.52,1022.8,753.45,56,51.9589
193.5,290.2,0,185.7,0,998.2,704.3,7,17.2004
251.81,0,99.94,146.14,12.35,1006,899.76,28,33.9429
475,118.8,0,181.1,8.9,852.1,781.5,56,72.2985
475,0,0,228,0,932,594,270,42.1311
500,0,0,200,0,1125,613,180,51.0419
167.95,42.08,163.83,121.75,5.72,1058.7,780.11,28,24.242
375,0,0,186,0,1038,758,28,38.2108
313.8,0,112.6,169.9,10.1,925.3,782.9,28,38.461
309.9,142.8,111.2,167.8,22.1,913.9,651.2,28,38.2156
359,19,141,154,10.91,942,801,7,38.6107
172.38,13.61,172.37,156.76,4.14,1006.3,856.4,28,33.6878
451,0,0,165,11.25,1030,745,28,78.8002
387,20,94,157,11.61,938,845,56,61.4599
286.3,200.9,0,144.7,11.2,1004.6,803.7,91,76.8007
288,192,0,192,0,932,717.8,90,50.5269
380,95,0,228,0,932,594,365,43.6983
255.5,170.3,0,185.7,0,1026.6,724.3,7,17.2362
525,0,0,189,0,1125,613,7,42.4235
166.8,250.2,0,203.5,0,975.6,692.6,3,6.90234
331,0,0,192,0,1025,821,90,37.9143
491,26,123,210,3.93,882,699,28,55.5511
151.8,178.1,138.7,167.5,18.3,944,694.6,28,36.3499
376,0,0,214.6,0,1003.5,762.36,56,36.3009
522,0,0,146,0,896,896,7,50.511
389.9,189,0,145.9,22,944.7,755.8,3,40.5963
200,133,0,192,0,965.4,806.2,7,17.1659
304,76,0,228,0,932,670,365,55.2601
500,0,0,200,0,1125,613,1,12.6381
359,19,141,154,10.91,942,801,3,23.6392
425,106.3,0,153.5,16.5,852.1,887.1,3,33.3982
237.5,237.5,0,228,0,932,594,270,38.408
202,11,141,206,1.72,942,801,3,9.84966
380,0,0,228,0,932,670,90,52.9083
236,0,0,193,0,968,885,180,24.1041
446,24,79,162,11.64,967,712,3,23.3457